STUDYID,USUBJID,AEID,AETERM,AEDECOD,AESEV,AESTDTC,AEENDTC,AEREL,AESER
ABC123,1001,AE001,Headache,Headache,MILD,2025-01-01,2025-01-02,POSSIBLE,N
ABC123,1001,AE002,Nausea,Nausea,MODERATE,2025-01-02,2025-01-03,PROBABLE,Y
