STUDYID,USUBJID,CMID,CMTRT,CMDOSE,CMDOSU,CMROUTE,CMINDC,CMSTDTC,CMENDTC
ABC123,1001,CM001,Ibuprofen,200,mg,Oral,Pain Relief,2025-01-01,2025-01-03
ABC123,1001,CM002,Insulin,10,IU,Subcutaneous,Blood Glucose Control,2025-01-02,2025-01-04
