STUDYID,USUBJID,EXID,EXTRT,EXDOSE,EXDOSU,EXROUTE,EXSTDTC,EXENDTC
ABC123,1001,EX001,Investigational Drug A,100,mg,Intravenous,2025-01-01,2025-01-01
ABC123,1001,EX002,Placebo,50,mg,Oral,2025-01-02,2025-01-02
